File: Experiment_2/XRD/XRD_results.csv
tth,A-1.5.cps,A-11.5.cps,A-13.5.cps,A-15.5.cps,A-3.5.cps,A-5.5.cps,A-7.5.cps,A-9.5.cps,B-1.5.cps,B-11.5.cps,B-13.5.cps,B-3.5.cps,B-5.5.cps,B-7.5.cps,B-9.5.cps
3.0001,3.17402,3.13725,3.25368,2.97181,3.10049,3.23529,2.84926,3.27206,3.20466,3.32721,2.70221,3.00245,2.62868,2.14461,3.33946
3.22522,2.6348,2.78186,2.48162,2.51225,2.46936,2.48775,2.23039,2.77574,2.68382,2.78186,2.46324,2.64706,2.57966,1.83824,2.73284
3.45033,2.31618,2.19975,2.06495,2.13848,2.11397,2.05882,2.23039,2.23652,2.11397,2.29779,1.99142,2.33456,2.1201,1.60539,2.40196
3.67545,1.85049,1.82598,1.81985,1.89338,1.92402,1.80147,1.81985,1.95466,1.86275,1.85662,1.73407,1.83211,1.77696,1.53186,1.89338
3.90057,1.72794,1.63603,1.67892,1.77696,1.63603,1.44608,1.82598,1.61765,1.76471,1.70956,1.56863,1.59314,1.66667,1.43382,1.77696
4.12568,1.51348,1.57475,1.41544,1.56863,1.48284,1.44608,1.40931,1.58088,1.65441,1.74632,1.40931,1.45833,1.40931,1.23775,1.50123
4.3508,1.28676,1.52574,1.37868,1.28676,1.48284,1.10294,1.36642,1.36029,1.25613,1.29902,1.33578,1.28676,1.37868,1.06618,1.18873
4.57592,1.36642,1.18873,1.12132,1.24387,1.18873,1.25,1.23162,1.09681,1.32353,1.28064,1.28676,1.25,1.06005,1.12745,1.23162
4.80103,1.23162,1.24387,1.18873,1.1152,1.04167,1.09069,1.22549,1.13358,1.29902,1.13971,1.10294,1.21324,1.21324,0.931373,1.0723
5.02615,1.13971,1.18873,0.974265,1.27451,1.07843,1.10907,0.98652,1.10907,0.949755,1.20098,1.13358,1.10907,0.91299,0.900735,1.12132
5.25127,1.12745,1.10294,1.01103,0.863971,0.88848,1.01716,0.968137,1.01716,0.931373,1.10294,0.96201,1.20098,1.04779,0.833333,0.919118
5.47639,0.955882,1.0049,0.870098,0.925245,0.9375,0.827206,0.796569,0.96201,0.980392,1.04779,0.925245,0.931373,0.925245,0.698529,0.974265
5.7015,0.96201,0.925245,0.814951,0.894608,0.851716,0.772059,1.01103,1.0723,1.13358,1.06618,0.968137,0.894608,1.05392,0.821078,0.900735
5.92662,1.0723,0.851716,0.716912,0.943627,0.772059,0.802696,0.931373,0.882353,0.845588,0.796569,0.808824,0.827206,0.91299,0.88848,0.906863
6.15174,0.882353,0.931373,0.784314,0.925245,0.857843,0.814951,0.827206,0.729167,0.919118,0.9375,0.870098,0.759804,0.906863,0.827206,0.772059
6.37685,0.784314,0.857843,0.667892,0.827206,0.790441,0.796569,0.772059,0.735294,0.870098,0.8394608,0.845588,0.931373,0.808824,0.784314,0.821078
6.60197,0.851716,0.876226,0.845588,0.747549,0.667892,0.765931,0.796569,0.851716,0.790441,0.790441,0.735294,0.747549,0.704657,0.735294,0.808824
6.82709,0.808824,0.9375,0.698529,0.680147,0.67402,0.563726,0.778186,0.680147,0.686275,0.906863,0.747549,0.729167,0.680147,0.655637,0.753676
7.0522,0.741422,0.88848,0.67402,0.808824,0.729167,0.686275,0.692402,0.753676,0.808824,0.729167,0.765931,0.784314,0.612745,0.698529,0.808824
7.27732,0.870098,0.735294,0.612745,0.667892,0.735294,0.735294,0.753676,0.716912,0.827206,0.747549,0.759804,0.716912,0.735294,0.778186,0.710784
7.50244,0.661765,0.637255,0.710784,0.802696,0.692402,0.631127,0.631127,0.631127,0.686275,0.753676,0.698529,0.741422,0.704657,0.704657,0.631127
7.72755,0.680147,0.680147,0.625,0.686275,0.692402,0.625,0.735294,0.655637,0.772059,0.655637,0.563726,0.753676,0.594363,0.784314,0.588235
7.95267,0.625,0.753676,0.582108,0.57598,0.723039,0.606618,0.557598,0.563726,0.784314,0.698529,0.698529,0.643382,0.631127,0.471814,0.612745
8.17779,0.753676,0.625,0.643382,0.594363,0.729167,0.631127,0.661765,0.631127,0.618873,0.741422,0.582108,0.667892,0.631127,0.606618,0.723039
8.4029,0.643382,0.680147,0.612745,0.588235,0.557598,0.569853,0.60049,0.64951,0.692402,0.582108,0.631127,0.557598,0.57598,0.569853,0.582108
8.62802,0.618873,0.655637,0.60049,0.582108,0.686275,0.606618,0.704657,0.588235,0.496324,0.710784,0.545343,0.557598,0.643382,0.551471,0.643382
8.85314,0.643382,0.64951,0.557598,0.435049,0.514706,0.496324,0.594363,0.594363,0.753676,0.643382,0.594363,0.453431,0.643382,0.655637,0.612745
9.07826,0.569853,0.631127,0.643382,0.57598,0.60049,0.612745,0.526961,0.588235,0.557598,0.508578,0.618873,0.631127,0.551471,0.502451,0.496324
9.30337,0.60049,0.582108,0.526961,0.57598,0.502451,0.594363,0.490196,0.533088,0.594363,0.563726,0.496324,0.465686,0.539216,0.453431,0.545343
9.52849,0.502451,0.606618,0.477941,0.477941,0.60049,0.484069,0.545343,0.496324,0.545343,0.526961,0.520833,0.64951,0.490196,0.441176,0.563726
9.75361,0.557598,0.661765,0.441176,0.582108,0.514706,0.686275,0.514706,0.625,0.551471,0.551471,0.471814,0.594363,0.490196,0.569853,0.514706
9.97872,0.588235,0.514706,0.526961,0.508578,0.514706,0.471814,0.569853,0.551471,0.526961,0.484069,0.496324,0.502451,0.428922,0.477941,0.588235
10.2038,0.582108,0.704657,0.367647,0.441176,0.484069,0.484069,0.545343,0.520833,0.582108,0.441176,0.545343,0.588235,0.526961,0.459559,0.569853
10.429,0.447304,0.625,0.557598,0.563726,0.526961,0.502451,0.514706,0.612745,0.533088,0.557598,0.416667,0.484069,0.471814,0.441176,0.594363
10.6541,0.582108,0.520833,0.490196,0.533088,0.416667,0.410539,0.453431,0.477941,0.588235,0.477941,0.410539,0.545343,0.484069,0.606618,0.533088
10.87919,0.655637,0.557598,0.539216,0.533088,0.557598,0.484069,0.533088,0.453431,0.441176,0.60049,0.471814,0.508578,0.563726,0.484069,0.502451
11.1043,0.57598,0.631127,0.398284,0.57598,0.502451,0.520833,0.545343,0.508578,0.508578,0.514706,0.514706,0.526961,0.545343,0.477941,0.545343
11.3294,0.612745,0.410539,0.563726,0.453431,0.551471,0.471814,0.57598,0.557598,0.57598,0.582108,0.410539,0.471814,0.533088,0.57598,0.563726
11.5545,0.876226,0.539216,0.490196,0.551471,0.514706,0.594363,0.704657,0.569853,0.508578,0.582108,0.520833,0.557598,0.557598,0.569853,0.60049
11.7797,0.716912,0.533088,0.569853,0.557598,0.563726,0.563726,0.496324,0.545343,0.471814,0.545343,0.526961,0.557598,0.57598,0.490196,0.545343
12.0048,0.618873,0.533088,0.563726,0.618873,0.441176,0.563726,0.606618,0.459559,0.514706,0.502451,0.557598,0.520833,0.582108,0.422794,0.484069
12.2299,0.563726,0.686275,0.484069,0.539216,0.545343,0.588235,0.477941,0.545343,0.551471,0.514706,0.551471,0.539216,0.514706,0.490196,0.533088
12.455,0.539216,0.557598,0.459559,0.435049,0.471814,0.533088,0.606618,0.490196,0.520833,0.471814,0.471814,0.582108,0.447304,0.545343,0.471814
12.6801,0.569853,0.625,0.557598,0.477941,0.539216,0.526961,0.502451,0.459559,0.557598,0.606618,0.618873,0.594363,0.502451,0.484069,0.557598
12.9052,0.533088,0.563726,0.324755,0.588235,0.520833,0.637255,0.459559,0.526961,0.551471,0.459559,0.704657,0.520833,0.422794,0.428922,0.539216
13.1304,0.557598,0.496324,0.631127,0.545343,0.514706,0.612745,0.545343,0.447304,0.502451,0.637255,0.379902,0.545343,0.539216,0.557598,0.502451
13.3555,0.471814,0.551471,0.447304,0.661765,0.422794,0.637255,0.557598,0.563726,0.465686,0.496324,0.502451,0.563726,0.563726,0.477941,0.508578
13.5806,0.563726,0.643382,0.594363,0.471814,0.428922,0.441176,0.563726,0.526961,0.563726,0.526961,0.477941,0.520833,0.545343,0.453431,0.526961
13.8057,0.57598,0.520833,0.569853,0.612745,0.477941,0.588235,0.625,0.533088,0.471814,0.490196,0.526961,0.594363,0.533088,0.57598,0.514706
14.0308,0.477941,0.533088,0.588235,0.520833,0.643382,0.539216,0.502451,0.514706,0.484069,0.484069,0.422794,0.490196,0.502451,0.404412,0.594363
14.2559,0.404412,0.490196,0.533088,0.520833,0.465686,0.539216,0.60049,0.484069,0.441176,0.416667,0.459559,0.539216,0.606618,0.57598,0.533088
14.4811,0.625,0.539216,0.563726,0.557598,0.471814,0.539216,0.557598,0.539216,0.459559,0.533088,0.502451,0.557598,0.520833,0.643382,0.551471
14.7062,0.57598,0.563726,0.422794,0.490196,0.496324,0.404412,0.57598,0.422794,0.502451,0.57598,0.484069,0.459559,0.526961,0.594363,0.520833
14.9313,0.60049,0.551471,0.569853,0.618873,0.508578,0.428922,0.508578,0.520833,0.551471,0.477941,0.514706,0.435049,0.447304,0.453431,0.526961
15.1564,0.465686,0.557598,0.526961,0.618873,0.496324,0.594363,0.465686,0.447304,0.459559,0.533088,0.404412,0.484069,0.582108,0.484069,0.447304
15.3815,0.618873,0.514706,0.471814,0.422794,0.508578,0.422794,0.459559,0.392157,0.563726,0.379902,0.490196,0.441176,0.441176,0.477941,0.484069
15.6066,0.551471,0.588235,0.459559,0.453431,0.60049,0.477941,0.508578,0.465686,0.60049,0.404412,0.465686,0.526961,0.471814,0.447304,0.533088
15.8318,0.526961,0.496324,0.447304,0.508578,0.618873,0.410539,0.453431,0.588235,0.465686,0.539216,0.367647,0.490196,0.496324,0.539216,0.471814
16.0569,0.533088,0.545343,0.545343,0.520833,0.435049,0.379902,0.551471,0.588235,0.416667,0.447304,0.539216,0.563726,0.324755,0.471814,0.459559
16.282,0.490196,0.459559,0.428922,0.496324,0.465686,0.428922,0.563726,0.484069,0.355392,0.416667,0.484069,0.386029,0.582108,0.453431,0.508578
16.5071,0.539216,0.520833,0.563726,0.539216,0.459559,0.496324,0.471814,0.490196,0.441176,0.520833,0.508578,0.447304,0.496324,0.484069,0.465686
16.7322,0.569853,0.606618,0.508578,0.392157,0.551471,0.367647,0.514706,0.643382,0.563726,0.477941,0.582108,0.386029,0.520833,0.520833,0.533088
16.9573,0.533088,0.428922,0.539216,0.465686,0.416667,0.484069,0.435049,0.318627,0.526961,0.465686,0.355392,0.447304,0.514706,0.496324,0.502451
17.1825,0.551471,0.520833,0.539216,0.477941,0.459559,0.514706,0.453431,0.490196,0.441176,0.514706,0.514706,0.447304,0.441176,0.459559,0.435049
17.4076,0.545343,0.471814,0.404412,0.508578,0.477941,0.496324,0.557598,0.441176,0.484069,0.453431,0.471814,0.526961,0.514706,0.373775,0.392157
17.6327,0.60049,0.496324,0.404412,0.441176,0.36152,0.520833,0.539216,0.465686,0.435049,0.447304,0.514706,0.435049,0.508578,0.514706,0.533088
17.8578,0.563726,0.447304,0.330882,0.502451,0.386029,0.508578,0.514706,0.533088,0.447304,0.471814,0.490196,0.557598,0.496324,0.416667,0.404412
18.0829,0.569853,0.508578,0.465686,0.508578,0.471814,0.447304,0.520833,0.386029,0.465686,0.484069,0.477941,0.477941,0.465686,0.502451,0.441176
18.308,0.398284,0.514706,0.367647,0.471814,0.477941,0.435049,0.465686,0.496324,0.465686,0.477941,0.471814,0.502451,0.459559,0.477941,0.453431
18.5332,0.582108,0.514706,0.459559,0.526961,0.453431,0.502451,0.459559,0.386029,0.484069,0.477941,0.477941,0.551471,0.477941,0.422794,0.392157
18.7583,0.435049,0.569853,0.447304,0.441176,0.539216,0.447304,0.545343,0.514706,0.465686,0.502451,0.502451,0.496324,0.520833,0.490196,0.465686
18.9834,0.569853,0.514706,0.477941,0.508578,0.441176,0.496324,0.557598,0.398284,0.490196,0.471814,0.465686,0.539216,0.404412,0.484069,0.502451
19.2085,0.582108,0.465686,0.582108,0.545343,0.447304,0.490196,0.508578,0.514706,0.459559,0.545343,0.422794,0.465686,0.447304,0.435049,0.330882
19.4336,0.631127,0.496324,0.526961,0.453431,0.484069,0.465686,0.631127,0.520833,0.441176,0.502451,0.477941,0.453431,0.533088,0.502451,0.57598
19.6587,0.594363,0.526961,0.588235,0.563726,0.606618,0.502451,0.67402,0.57598,0.520833,0.563726,0.477941,0.655637,0.588235,0.520833,0.557598
19.8839,0.631127,0.551471,0.67402,0.545343,0.545343,0.57598,0.60049,0.606618,0.618873,0.569853,0.520833,0.618873,0.551471,0.582108,0.625
20.109,0.594363,0.606618,0.514706,0.533088,0.428922,0.508578,0.618873,0.582108,0.514706,0.60049,0.582108,0.514706,0.64951,0.582108,0.655637
20.3341,0.735294,0.667892,0.514706,0.545343,0.404412,0.588235,0.551471,0.526961,0.557598,0.588235,0.484069,0.582108,0.588235,0.520833,0.60049
20.5592,0.906863,0.667892,0.563726,0.514706,0.477941,0.625,0.643382,0.545343,0.471814,0.477941,0.496324,0.496324,0.643382,0.447304,0.631127
20.7843,1.51961,0.631127,0.533088,0.502451,0.655637,0.569853,0.661765,0.680147,0.698529,0.563726,0.526961,0.551471,0.704657,0.557598,0.704657
21.0094,0.67402,0.545343,0.508578,0.563726,0.484069,0.533088,0.680147,0.569853,0.502451,0.563726,0.563726,0.582108,0.582108,0.539216,0.545343
21.2346,0.582108,0.545343,0.618873,0.539216,0.502451,0.57598,0.563726,0.533088,0.594363,0.447304,0.526961,0.533088,0.588235,0.514706,0.490196
21.4597,0.594363,0.447304,0.410539,0.569853,0.569853,0.520833,0.57598,0.526961,0.60049,0.508578,0.526961,0.514706,0.563726,0.428922,0.545343
21.6848,0.67402,0.551471,0.545343,0.551471,0.618873,0.612745,0.631127,0.57598,0.484069,0.557598,0.563726,0.588235,0.741422,0.569853,0.563726
21.9099,0.637255,0.667892,0.64951,0.582108,0.618873,0.667892,0.735294,0.686275,0.67402,0.698529,0.533088,0.569853,0.551471,0.545343,0.618873
22.135,0.790441,0.790441,0.735294,0.851716,0.827206,0.882353,0.612745,0.716912,0.661765,0.680147,0.655637,0.741422,0.704657,0.686275,0.814951
22.3601,0.931373,0.8394608,0.631127,0.802696,0.772059,0.88848,0.900735,0.863971,0.919118,0.772059,0.845588,0.827206,0.88848,0.796569,0.8394608
22.5853,1.27451,1.25613,1.24387,1.45833,1.30515,1.28676,1.21324,1.34804,1.43382,1.1826,1.26225,1.22549,1.13358,1.20711,1.26838
22.8104,2.65319,3.23529,2.89216,2.8799,3.2598,3.23529,3.2598,3.36397,3.19853,3.04534,3.06985,2.91667,3.29044,2.95956,2.9902
23.0355,8.53554,10.9865,10.6189,11.2439,10.386,9.57108,10.0184,10.8578,11.7953,11.2377,11.3603,11.6176,11.587,11.7341,11.2929
23.2606,1.86275,1.88725,2.08333,2.19975,1.86887,1.98529,2.1875,1.98529,2.19363,1.77696,2.01593,2.18137,1.89951,1.70343,2.19363
23.4857,0.974265,0.968137,0.931373,0.845588,1.09069,0.906863,1.02941,1.10907,1.02941,1.06005,1.0049,1.09069,1.01103,0.894608,1.09681
23.7109,0.851716,0.778186,0.661765,0.808824,0.723039,0.808824,0.802696,0.710784,0.827206,0.594363,0.747549,0.778186,0.67402,0.772059,0.680147
23.936,0.594363,0.606618,0.67402,0.851716,0.723039,0.710784,0.741422,0.759804,0.655637,0.704657,0.588235,0.735294,0.729167,0.514706,0.643382
24.1611,0.716912,0.661765,0.625,0.723039,0.588235,0.692402,0.716912,0.594363,0.539216,0.637255,0.459559,0.612745,0.637255,0.606618,0.551471
24.3862,0.710784,0.57598,0.563726,0.588235,0.692402,0.67402,0.643382,0.631127,0.643382,0.606618,0.557598,0.563726,0.60049,0.582108,0.655637
24.6113,0.974265,0.631127,0.612745,0.67402,0.606618,0.863971,0.618873,0.625,0.661765,0.533088,0.618873,0.680147,0.625,0.643382,0.557598
24.8364,0.772059,0.588235,0.60049,0.67402,0.612745,0.588235,0.551471,0.637255,0.67402,0.667892,0.60049,0.772059,0.582108,0.545343,0.64951
25.0616,0.980392,0.686275,0.698529,0.704657,0.735294,0.686275,0.876226,0.612745,0.790441,0.778186,0.680147,0.704657,0.710784,0.533088,0.765931
25.2867,1.5625,1.06618,0.9375,1.01716,0.9375,1.03554,1.12132,1.02328,1.10294,0.943627,1.09681,1.04779,1.10294,0.569853,1.07843
25.5118,3.18627,2.97181,2.82475,2.94118,3.00858,2.76961,2.93505,2.97794,2.89828,2.9902,2.79412,2.84314,3.00245,0.8394608,3.04534
25.7369,1.37868,1.09681,1.12132,0.974265,1.02328,1.03554,1.15809,0.931373,1.03554,0.974265,0.998775,1.17034,1.10294,0.67402,0.980392
25.962,1.60539,0.747549,0.539216,0.955882,0.790441,0.772059,0.772059,0.821078,0.680147,0.637255,0.723039,0.741422,0.612745,0.569853,0.686275
26.1871,4.9326,0.716912,0.802696,0.729167,0.894608,0.900735,0.821078,0.692402,0.612745,0.67402,0.631127,0.729167,0.692402,0.661765,0.753676
26.4123,2.75735,0.974265,0.882353,0.790441,0.955882,1.02328,0.845588,0.716912,0.778186,0.784314,0.704657,0.882353,0.790441,0.802696,0.8394608
26.6374,10.5147,1.32353,1.36029,1.17034,1.71569,1.59926,1.72794,1.6299,1.3174,1.23775,1.34804,1.54412,1.4277,1.53186,1.29289
26.8625,1.40931,0.741422,0.686275,0.765931,0.729167,0.704657,0.857843,0.821078,0.667892,0.741422,0.747549,0.827206,0.729167,0.692402,0.772059
27.0876,1.99142,0.882353,0.735294,0.753676,0.759804,0.894608,0.821078,0.931373,0.808824,0.778186,0.802696,0.765931,0.906863,0.655637,0.735294
27.3127,2.83088,1.12132,1.3174,1.24387,1.29289,1.19485,1.48284,1.28676,1.19485,1.1152,1.14583,1.26838,0.925245,1.21324,1.18873
27.5378,1.21936,0.931373,0.931373,1.04779,0.98652,1.06618,1.0049,0.882353,0.98652,0.851716,0.900735,0.925245,0.943627,0.821078,0.894608
27.763,1.45221,1.20098,0.98652,1.09069,1.15196,1.16422,1.14583,1.1152,1.18873,1.13358,1.10294,1.1826,1.17647,1.23162,1.10294
27.9881,1.95466,1.88113,1.51348,1.58088,1.44608,1.57475,1.70956,1.79534,1.72181,1.68505,1.58701,1.61152,1.53186,1.85049,1.69118
28.2132,2.13235,2.06495,1.89338,1.75245,1.90564,2.1875,1.99755,2.13235,1.99755,2.02819,1.99755,2.10784,1.875,1.82598,2.18137
28.4383,2.29167,1.92402,1.78922,1.82598,1.73407,1.83824,2.03431,1.89951,1.81985,1.86275,1.90564,1.77696,1.71569,1.72794,1.95466
28.6634,2.31618,2.61029,2.08333,2.43873,2.40809,2.41422,2.60417,2.50613,2.21201,2.49387,2.3652,2.56127,2.38358,2.27941,2.62255
28.8885,4.60172,5.4902,4.97549,5.03676,4.8652,5.22672,5.28799,5.22059,4.95711,4.99387,4.70588,5.25123,5.09191,5.01838,5.1348
29.1137,15.1961,20.1961,17.8309,18.1985,17.7512,17.7145,18.3824,19.3321,18.2782,19.0564,17.4265,19.1483,18.5539,18.8971,18.9706
29.3388,71.5012,95.3309,91.0233,92.8125,86.9976,83.6949,85.6618,89.7243,95.7537,95.3064,89.5221,93.125,91.3113,96.6728,96.2929
29.5639,23.652,26.6973,27.5613,26.9056,25.7966,30.0184,30.0245,27.9534,26.5993,27.9902,29.5282,26.348,27.5735,24.3627,27.2794
29.789,6.60539,6.93627,6.84436,6.32353,7.08333,7.72059,7.97181,7.21814,6.75858,6.86887,6.54412,6.70956,6.78922,6.17034,6.95466
30.0141,3.30882,3.17402,3.33946,3.38848,3.13113,3.3027,3.25368,3.31495,3.10049,3.1924,3.13725,3.06373,3.1924,3.16789,3.27206
30.2392,2.41422,2.26103,2.19363,2.1201,2.12623,2.1201,2.41422,2.13848,2.07108,2.14461,2.13235,2.08333,2.14461,1.83211,2.08946
30.4644,1.72794,1.57475,1.56863,1.62377,1.56863,1.6299,1.64216,1.78922,1.57475,1.67892,1.70956,1.56863,1.69118,1.39706,1.48897
30.6895,1.35417,1.29289,1.29902,1.3174,1.39706,1.34804,1.57475,1.39706,1.40319,1.32353,1.21936,1.15196,1.29289,1.29902,1.35417
30.9146,1.70956,1.12745,1.26225,1.3848,1.26838,1.1826,1.33578,1.28064,1.27451,1.26838,1.07843,1.21324,1.1826,1.17647,1.32353
31.1397,2.1875,1.6973,1.50123,1.4277,1.64216,1.45221,1.62377,1.30515,1.47059,1.42157,1.50123,1.57475,1.39706,1.36642,1.36642
31.3648,3.22304,3.75,3.44363,3.44363,3.40074,3.07598,3.46201,3.46814,3.16176,3.2598,3.29657,3.19853,3.2598,3.62745,3.46814
31.5899,6.83824,4.44853,3.9951,4.25245,4.54044,3.58456,4.07475,4.12377,4.14828,4.01961,3.38848,3.49877,3.46201,3.4375,4.01961
31.8151,5.1777,2.45711,2.80025,2.70833,2.87377,2.73284,2.8125,2.73284,2.73284,2.38971,3.15564,2.53676,2.22426,2.21201,2.28554
32.0402,1.12132,0.925245,0.931373,1.05392,0.980392,1.04779,0.992647,1.01716,0.876226,0.876226,0.968137,0.96201,0.91299,0.8394608,0.845588
32.2653,1.0049,0.796569,0.876226,0.845588,0.863971,0.894608,0.827206,0.833333,0.833333,0.88848,0.772059,0.796569,0.704657,0.741422,0.67402
32.4904,0.906863,0.784314,0.741422,0.637255,0.753676,0.784314,0.876226,0.686275,0.735294,0.710784,0.729167,0.692402,0.618873,0.784314,0.772059
32.7155,1.36642,0.790441,0.802696,0.698529,0.686275,0.845588,0.876226,0.753676,0.686275,0.741422,0.833333,0.735294,0.772059,0.618873,0.692402
32.9406,2.16912,0.612745,0.710784,0.692402,0.784314,0.765931,0.759804,0.680147,0.551471,0.772059,0.765931,0.692402,0.704657,0.545343,0.772059
33.1658,3.79289,0.655637,0.667892,0.704657,0.814951,0.741422,1.01103,0.710784,0.692402,0.667892,0.716912,0.753676,0.723039,0.606618,0.729167
33.3909,1.23162,0.698529,0.698529,0.637255,0.680147,0.753676,0.759804,0.735294,0.723039,0.698529,0.716912,0.625,0.545343,0.57598,0.60049
33.616,0.790441,0.735294,0.686275,0.735294,0.821078,0.753676,0.747549,0.772059,0.747549,0.64951,0.698529,0.759804,0.698529,0.680147,0.753676
33.8411,0.8394608,0.827206,0.655637,0.533088,0.667892,0.821078,0.851716,0.723039,0.778186,0.765931,0.698529,0.790441,0.723039,0.569853,0.735294
34.0662,0.931373,0.710784,0.625,0.765931,0.716912,0.882353,0.772059,0.680147,0.759804,0.710784,0.692402,0.637255,0.686275,0.704657,0.686275
34.2913,0.845588,0.919118,0.919118,0.900735,0.9375,1.02328,0.943627,0.772059,0.863971,0.796569,0.821078,0.753676,0.759804,0.796569,0.894608
34.5165,1.01103,0.9375,0.790441,0.833333,0.753676,1.03554,0.906863,0.8394608,0.91299,1.0049,0.925245,0.955882,0.998775,0.759804,0.863971
34.7416,1.26225,1.10907,1.09069,1.02328,1.02328,0.980392,1.27451,0.949755,1.17647,1.1826,1.01103,0.943627,1.1152,0.796569,0.998775
34.9667,2.3652,2.32843,2.05882,1.96078,2.23652,2.13848,2.15686,1.9424,1.97917,2.02819,2.02206,2.26716,2.11397,0.808824,2.16299
35.1918,4.74877,4.03799,4.41176,4.03799,4.4424,4.26471,4.30147,4.23407,4.22794,4.34436,4.56495,4.60172,4.27696,1.18873,4.20956
35.4169,1.64828,1.37868,1.57475,1.48897,1.59926,1.31127,1.52574,1.5625,1.36029,1.6299,1.48897,1.26225,1.35417,0.98652,1.4951
35.642,2.28554,2.53676,2.15074,2.13235,2.42034,2.21201,2.42647,2.58578,2.37132,2.40809,2.11397,2.26716,2.33456,1.95466,2.34681
35.8672,7.5,8.83578,8.06985,8.38235,8.46814,8.44363,8.0576,8.84804,8.87868,8.81127,8.06373,8.30882,8.17402,9.14828,8.97059
36.0923,8.49265,8.16789,9.39338,8.82966,7.95956,8.77451,8.34559,8.54779,7.86152,8.65196,9.65686,8.11275,8.67647,7.5674,8.35784
36.3174,2.37132,2.05882,1.96691,1.95466,2.1201,2.08946,2.09559,2.02206,1.83211,2.1875,2.00368,1.94853,2.15074,1.60539,2.05882
36.5425,2.47549,1.28676,1.25613,1.24387,1.35417,1.26225,1.59926,1.20711,1.25,1.4277,1.34804,1.34191,1.31127,1.10294,1.31127
36.7676,1.18873,0.98652,1.01716,0.919118,0.98652,1.12132,1.01103,1.02328,1.02328,0.98652,0.931373,0.980392,0.870098,0.870098,0.974265
36.9927,1.19485,0.827206,0.833333,0.790441,0.814951,0.919118,1.06618,0.8394608,0.833333,0.790441,0.9375,0.863971,0.821078,0.851716,0.894608
37.2179,1.37868,0.821078,0.9375,0.808824,0.906863,1.03554,0.96201,0.998775,0.759804,0.9375,0.9375,0.882353,0.882353,0.723039,0.821078
37.443,1.34804,1.13971,0.925245,0.974265,1.04779,1.04167,1.04167,1.1152,1.12745,1.09681,0.96201,1.04779,0.9375,0.784314,1.0723
37.6681,2.64706,2.16299,2.08333,1.99142,2.10172,2.13235,2.08333,2.03431,1.93627,2.21201,1.99142,2.12623,1.66054,1.12745,2.03431
37.8932,3.91544,1.7402,1.70956,1.85049,1.83824,1.74632,1.76471,1.84436,1.73407,1.57475,1.76471,1.63603,1.71569,0.759804,1.69118
38.1183,1.39093,0.919118,0.925245,0.833333,0.98652,1.07843,0.91299,1.08456,0.900735,1.09681,1.07843,0.851716,0.998775,0.759804,0.919118
38.3434,1.81373,0.974265,0.943627,0.919118,0.906863,0.91299,0.955882,0.698529,0.974265,0.968137,0.925245,0.955882,0.882353,0.894608,0.9375
38.5686,2.19363,0.98652,1.01103,0.88848,0.894608,1.04167,1.03554,0.9375,1.0049,1.05392,0.735294,1.01103,0.980392,0.894608,1.09681
38.7937,1.47672,1.25,1.12745,1.16422,1.28676,1.23162,1.33578,1.27451,1.37255,1.31127,0.980392,1.21936,1.22549,1.28676,1.34804
39.0188,2.18137,2.34681,2.1201,2.09559,1.86887,2.23039,2.29167,2.13235,2.40196,2.1875,1.8076,2.13235,2.0527,2.08333,2.07108
39.2439,6.15809,7.91667,7.61642,7.19363,7.08333,7.06495,7.61029,7.77574,7.7451,7.82476,7.31618,8.02696,7.70833,7.62868,7.41422
39.469,13.701,16.3358,17.1201,16.826,15.962,16.1765,16.0233,16.44,16.3971,16.8505,17.7083,15.4044,16.6544,17.1936,16.25
39.6941,3.16176,3.65196,3.67647,3.45588,3.57843,4.19118,4.08701,3.9277,3.38848,3.5723,3.62132,3.82353,3.5049,3.03922,3.65809
39.9193,1.86275,1.69118,1.66054,1.65441,1.66667,1.93015,1.83211,1.64216,1.74632,1.7402,1.61765,1.59926,1.67279,1.47059,1.70956
40.1444,1.48284,1.24387,1.12132,1.25613,1.21936,1.43382,1.28064,1.31127,1.20711,1.25,1.15809,1.24387,1.05392,1.10907,1.28676
40.3695,1.25,1.07843,0.753676,0.863971,0.833333,0.96201,1.06005,1.06005,1.13971,1.09681,0.968137,0.827206,0.943627,0.716912,1.02941
40.5946,1.17034,0.863971,0.790441,0.8394608,0.814951,0.870098,0.931373,0.9375,0.778186,0.906863,0.814951,0.931373,0.882353,0.821078,1.01716
40.8197,1.03554,0.91299,0.821078,0.857843,0.796569,0.8394608,0.870098,0.943627,0.821078,0.919118,0.876226,0.741422,0.827206,0.845588,0.88848
41.0448,1.05392,0.827206,0.796569,0.655637,0.753676,0.814951,1.02328,0.851716,0.876226,0.919118,0.882353,0.765931,0.765931,0.759804,0.882353
41.27,1.28676,1.04779,1.09681,0.9375,1.0049,1.03554,1.06005,0.943627,1.07843,1.0723,0.96201,0.88848,0.931373,0.949755,1.04779
41.4951,1.02328,0.925245,0.821078,0.894608,0.91299,0.9375,1.09069,0.894608,0.998775,0.974265,0.759804,0.91299,0.833333,0.784314,0.906863
41.7202,1.03554,0.900735,0.882353,0.955882,0.851716,0.943627,0.943627,0.851716,0.710784,0.790441,0.790441,0.925245,0.845588,0.765931,0.998775
41.9453,1.06618,0.943627,0.870098,0.919118,0.833333,0.96201,0.980392,0.808824,0.91299,0.931373,0.882353,1.02328,0.833333,0.778186,1.05392
42.1704,1.04779,1.10294,0.814951,0.821078,1.0049,1.05392,0.974265,0.91299,0.96201,1.08456,0.931373,0.900735,0.998775,0.765931,0.88848
42.3956,1.66667,1.13971,1.12745,1.10294,1.1152,1.15196,1.16422,0.931373,0.974265,1.0723,0.96201,0.980392,1.14583,0.955882,1.13971
42.6207,1.43382,1.26838,1.30515,1.50735,1.3848,1.3848,1.37868,1.36029,1.35417,1.33578,1.16422,1.09069,1.39706,1.10907,1.34191
42.8458,2.87377,2.72059,2.54289,2.81863,2.35294,2.62255,2.38971,2.71446,2.72672,2.68382,2.75123,2.70833,2.82475,2.34069,2.68995
43.0709,9.60784,12.8983,11.4461,12.0772,11.8811,10.674,11.4338,11.3603,12.8186,12.3284,11.2071,12.5184,11.6973,12.0527,12.114
43.296,13.4681,13.5846,15.6189,14.81,14.2341,14.5466,15.3064,14.8468,14.1176,15.3186,15.674,14.3076,14.5895,10.9498,14.8713
43.5211,3.84804,3.76838,3.84191,3.87255,4.197304,4.20956,4.2402,4.05637,3.69485,3.8174,4.39951,4.09926,3.79902,2.26716,3.8848
43.7463,1.86887,1.53186,1.75245,1.72794,1.73407,1.90564,1.82598,2.0098,1.67892,1.71569,1.68505,1.78922,1.67279,1.25,1.80147
43.9714,1.27451,1.1826,1.28064,1.14583,1.13358,1.21324,1.15196,1.25613,1.28676,1.22549,1.23775,1.30515,1.23775,0.8394608,1.21936
44.1965,0.980392,0.974265,0.870098,0.919118,0.88848,1.01716,1.35417,1.09681,0.968137,1.09681,1.13358,1.1826,0.943627,0.9375,0.998775
44.4216,1.0723,0.998775,0.949755,0.900735,1.04779,1.09681,1.01716,0.900735,0.98652,0.870098,0.998775,0.9375,1.02941,0.784314,1.04167
44.6467,1.09681,1.0049,0.845588,1.05392,0.91299,0.943627,1.12745,0.98652,0.833333,0.949755,0.91299,0.900735,0.91299,0.876226,0.96201
44.8718,1.25,0.98652,0.998775,0.870098,1.08456,0.870098,0.949755,0.998775,0.870098,1.09069,1.02328,0.980392,0.949755,0.833333,1.03554
45.097,1.25,1.1826,1.10907,1.13971,1.22549,1.02328,1.21936,1.20098,1.19485,0.998775,1.09069,1.0049,1.0049,0.882353,1.01716
45.3221,3.81127,2.3652,2.35907,2.27328,2.66544,2.1201,2.51838,2.53676,2.19363,2.3223,1.81373,2.22426,2.02206,2.08333,2.27328
45.5472,4.76103,2.76961,2.68995,2.84314,3.04534,2.75735,2.48775,2.69608,2.54289,2.68995,2.48775,2.31618,2.42647,2.45711,2.54902
45.7723,3.29044,1.20098,1.01103,1.03554,1.23162,1.23775,1.13971,1.36029,1.1826,1.15196,1.35417,1.24387,1.10294,1.1152,1.06618
45.9974,2.34681,1.10907,1.1826,1.20711,1.31127,1.23775,1.15809,1.20711,0.998775,1.10907,1.14583,1.26225,1.0723,1.02941,1.30515
46.2225,1.59926,1.28064,1.23162,1.44608,1.37255,1.53799,1.51961,1.20098,1.29902,1.41544,1.41544,1.36029,1.18873,1.22549,1.28064
46.4477,1.58088,1.52574,1.54412,1.55025,1.36642,1.5625,1.4951,1.43382,1.55025,1.43995,1.43382,1.45833,1.40319,1.5625,1.59926
46.6728,1.88113,2.15074,1.875,1.91176,1.95466,1.75858,2.06495,2.0098,1.875,2.1201,1.75858,1.86887,2.00368,1.82598,2.03431
46.8979,3.03922,3.32108,2.91054,3.35784,3.23529,3.20466,3.70098,3.29657,3.3027,3.29044,3.11275,3.56005,3.27819,3.21078,3.24755
47.123,7.16912,8.55392,8.70098,9.42402,8.52941,8.62745,8.65196,8.66422,9.08701,9.31985,9.45466,8.67034,9.26471,9.24632,8.89093
47.3481,8.21078,11.0294,10.5944,10.5147,9.98775,10.3186,10.3554,10.7292,10.6311,10.7782,10.2757,10.386,10.3002,10.7475,10.6373
47.5732,13.9032,16.3664,17.2855,16.7525,15.4044,16.0294,16.1152,16.8321,16.6483,16.7586,17.2978,15.9804,16.0049,17.3591,15.9988
47.7984,4.74877,5.33701,5.30025,5.01838,5.19608,5.18995,5.4473,5.22059,4.90196,5.22672,4.85907,5.27574,5.2451,4.76103,4.94485
48.0235,3.37623,3.75613,3.54779,3.5723,3.52941,3.63358,3.78064,3.6826,3.38848,3.5723,3.43137,3.8174,3.46814,3.48039,3.74387
48.2486,5.60662,5.76593,5.28799,5.3125,5.20833,5.51471,5.8027,5.20833,5.39216,5.25735,5.30025,5.53309,5.14706,5.18995,5.7598
48.4737,17.1017,21.0784,21.0417,21.9853,20.049,19.087,19.136,19.9265,22.2243,21.0233,20.8762,20.2267,20.98652,22.8064,22.0956
48.6988,7.07108,7.60417,8.48652,8.02696,7.86152,8.62132,8.63358,7.73284,8.23529,8.6826,9.1299,8.14338,8.3701,7.59804,8.00245
48.9239,2.86152,2.90441,3.08211,2.88603,2.84926,3.18015,3.1924,2.98407,2.9473,3.11275,3.03309,2.92892,3.06373,2.91054,3.28431
49.1491,1.91176,1.72181,1.83211,2.08333,1.73407,1.96691,2.02819,1.7402,1.8076,1.95466,1.78309,1.63603,1.72181,1.62377,1.82598
49.3742,1.36029,1.32966,1.29902,1.32353,1.36642,1.37868,1.48897,1.32353,1.35417,1.12132,1.33578,1.26838,1.30515,1.16422,1.33578
49.5993,1.12132,0.992647,1.04167,1.05392,1.07843,1.06618,1.1826,0.98652,1.1152,1.01103,1.07843,0.91299,1.02941,1.01103,0.980392
49.8244,1.1152,1.09681,0.894608,1.09681,0.790441,0.919118,1.05392,1.06618,0.955882,1.05392,0.98652,0.919118,1.04779,0.88848,0.91299
50.0495,1.83824,0.821078,1.01716,0.827206,1.01103,1.03554,0.98652,1.04167,0.857843,1.03554,0.943627,0.943627,1.06005,0.772059,0.9375
50.2746,1.96691,0.784314,1.09681,0.9375,0.974265,0.882353,0.900735,0.857843,0.747549,0.870098,1.06005,0.91299,0.894608,0.784314,0.919118
50.4998,1.29289,0.704657,0.802696,0.772059,0.808824,0.772059,0.833333,0.8394608,0.814951,0.943627,0.692402,0.747549,0.857843,0.778186,0.900735
50.7249,1.04167,0.747549,0.667892,0.790441,0.778186,0.814951,0.606618,0.680147,0.747549,0.814951,0.723039,0.716912,0.67402,0.710784,0.778186
50.95,0.974265,0.741422,0.686275,0.772059,0.845588,0.857843,0.88848,0.784314,0.606618,0.60049,0.796569,0.64951,0.60049,0.67402,0.588235
51.1751,0.796569,0.753676,0.735294,0.778186,0.759804,0.870098,0.741422,0.729167,0.655637,0.716912,0.667892,0.723039,0.808824,0.698529,0.692402
51.4002,0.704657,0.747549,0.64951,0.753676,0.821078,0.631127,0.8394608,0.680147,0.643382,0.753676,0.64951,0.790441,0.680147,0.680147,0.753676
51.6253,0.778186,0.857843,0.67402,0.64951,0.802696,0.765931,0.796569,0.741422,0.784314,0.802696,0.57598,0.772059,0.692402,0.539216,0.606618
51.8505,0.894608,0.637255,0.67402,0.833333,0.765931,0.655637,0.64951,0.729167,0.686275,0.64951,0.814951,0.60049,0.67402,0.551471,0.704657
52.0756,1.01103,0.870098,0.680147,0.784314,0.863971,0.833333,0.778186,0.870098,0.8394608,0.796569,0.692402,0.870098,0.759804,0.618873,0.741422
52.3007,2.17525,1.09069,0.906863,1.09069,1.05392,0.9375,1.06618,0.943627,0.833333,0.943627,0.974265,1.02328,1.0049,0.680147,1.02328
52.5258,3.80515,2.48162,2.24877,2.49387,2.80025,2.5,2.51838,2.84926,2.32843,2.46936,2.5,2.65319,2.45098,0.747549,2.55515
52.7509,1.68505,1.1826,1.18873,1.09069,1.3174,1.39706,1.23162,1.21324,1.10907,1.22549,1.32353,1.17034,1.43382,0.60049,1.1826
52.976,1.75245,0.735294,0.741422,0.796569,0.759804,0.91299,0.784314,0.91299,0.778186,0.778186,0.802696,0.710784,0.698529,0.618873,0.753676
53.2012,1.12132,0.759804,0.57598,0.698529,0.808824,0.643382,0.692402,0.612745,0.704657,0.704657,0.716912,0.716912,0.686275,0.545343,0.8394608
53.4263,0.808824,0.680147,0.667892,0.704657,0.667892,0.778186,0.704657,0.741422,0.661765,0.60049,0.582108,0.661765,0.618873,0.625,0.643382
53.6514,0.808824,0.692402,0.741422,0.557598,0.716912,0.729167,0.686275,0.67402,0.667892,0.67402,0.643382,0.612745,0.67402,0.655637,0.551471
53.8765,0.998775,0.863971,0.704657,0.716912,0.925245,0.870098,0.729167,0.900735,0.692402,0.631127,0.735294,0.802696,0.704657,0.802696,0.655637
54.1016,0.710784,0.686275,0.729167,0.723039,0.759804,0.784314,0.778186,0.680147,0.606618,0.680147,0.723039,0.67402,0.661765,0.612745,0.661765
54.3267,0.723039,0.692402,0.667892,0.710784,0.667892,0.631127,0.618873,0.790441,0.692402,0.569853,0.710784,0.772059,0.692402,0.631127,0.60049
54.5519,0.67402,0.790441,0.747549,0.539216,0.692402,0.710784,0.655637,0.661765,0.625,0.625,0.637255,0.692402,0.747549,0.606618,0.753676
54.777,0.821078,0.845588,0.882353,0.808824,0.680147,0.9375,0.870098,0.667892,0.802696,0.900735,0.882353,0.778186,0.925245,0.667892,0.778186
55.0021,1.0049,0.588235,0.631127,0.759804,0.741422,0.741422,0.772059,0.765931,0.716912,0.814951,0.680147,0.778186,0.741422,0.735294,0.796569
55.2272,0.778186,0.661765,0.710784,0.778186,0.729167,0.8394608,0.735294,0.612745,0.735294,0.661765,0.667892,0.643382,0.772059,0.686275,0.686275
55.4523,0.759804,0.67402,0.698529,0.778186,0.704657,0.716912,0.790441,0.667892,0.778186,0.588235,0.716912,0.698529,0.765931,0.704657,0.814951
55.6774,0.845588,0.772059,0.753676,0.692402,0.747549,0.772059,0.882353,0.618873,0.680147,0.833333,0.680147,0.716912,0.790441,0.637255,0.784314
55.9026,0.882353,0.863971,0.857843,0.765931,0.833333,0.759804,0.98652,0.741422,0.716912,0.882353,0.747549,0.637255,0.631127,0.753676,0.747549
56.1277,0.980392,0.870098,0.943627,0.992647,0.919118,0.998775,1.01103,0.919118,0.925245,1.04779,1.04779,0.91299,1.0049,0.925245,0.943627
56.3528,2.16299,1.68505,1.90564,1.86887,1.96078,1.77083,2.23039,1.70343,1.91789,1.75858,1.59314,1.72794,1.77696,1.88725,2.17525
56.5779,4.25245,4.38725,4.78554,4.70588,4.6875,4.55882,4.61397,4.83456,4.58333,4.65074,4.87132,4.43015,4.52206,4.64461,4.22181
56.803,2.04044,2.23652,2.3223,2.20588,2.1201,2.23652,2.17525,2.41422,2.18137,2.34069,2.33456,2.14461,2.20588,1.85662,2.17525
57.0281,1.875,2.09559,1.94853,2.03431,2.22426,2.06495,2.08333,2.05882,1.92402,2.02206,2.05882,1.89951,2.08333,1.89338,2.42034
57.2533,4.14828,4.95098,4.47917,4.77328,4.52819,4.57721,4.69363,4.70588,4.94485,4.96936,4.52819,4.72426,4.54657,4.32598,4.9326
57.4784,9.60172,10.6679,10.9252,10.6556,10.3309,9.99387,10.4718,10.435,10.4473,11.0846,10.9743,11.4583,10.6618,7.42034,10.6434
57.7035,3.70711,4.07475,3.83578,3.95833,3.98897,4.41176,4.11152,3.91544,3.8848,4.10539,4.27696,4.03799,4.01348,2.56127,3.97059
57.9286,2.04657,2.0527,2.19363,1.97917,2.02819,2.00368,2.34681,2.04044,2.08946,1.88725,1.99142,2.35907,1.97304,1.76471,1.82598
58.1537,1.6973,1.92402,1.81373,1.72794,1.82598,1.71569,2.09559,1.59314,1.51348,1.70956,1.93627,1.79534,1.88113,1.85662,1.81373
58.3788,1.17034,1.09681,1.1826,1.15809,1.02941,1.04167,1.08456,1.15196,0.998775,1.15809,1.17034,1.12745,1.15196,0.900735,1.01103
58.604,0.992647,0.870098,0.723039,0.906863,0.821078,0.8394608,0.980392,0.827206,0.851716,0.968137,0.845588,0.88848,0.949755,0.876226,0.863971
58.8291,0.919118,0.692402,0.753676,0.747549,0.772059,0.772059,0.802696,0.716912,0.857843,0.88848,0.759804,0.772059,0.778186,0.784314,0.765931
59.0542,0.790441,0.814951,0.747549,0.667892,0.753676,0.759804,0.88848,0.661765,0.790441,0.790441,0.735294,0.692402,0.765931,0.759804,0.680147
59.2793,0.827206,0.747549,0.680147,0.692402,0.802696,0.692402,0.747549,0.661765,0.692402,0.723039,0.747549,0.729167,0.735294,0.582108,0.723039
59.5044,0.735294,0.637255,0.661765,0.704657,0.796569,0.680147,0.759804,0.710784,0.796569,0.716912,0.704657,0.67402,0.612745,0.704657,0.631127
59.7295,0.96201,0.759804,0.827206,0.882353,0.747549,0.863971,0.8394608,0.8394608,0.753676,0.796569,0.821078,0.88848,0.729167,0.612745,0.906863
59.9547,1.53186,0.716912,0.876226,0.845588,0.833333,0.900735,0.980392,0.894608,0.821078,0.925245,0.931373,0.894608,0.876226,0.716912,0.925245
60.1798,0.98652,0.925245,1.14583,0.833333,0.900735,0.96201,1.06005,1.08456,0.943627,1.04167,0.931373,0.968137,0.821078,1.05392,0.821078
60.4049,1.48284,1.59314,1.52574,1.56863,1.45221,1.53186,1.61152,1.64828,1.62377,1.64828,1.50735,1.60539,1.39706,1.46446,1.72181
60.63,4.43015,5.88235,5.96814,5.56985,5.07353,5.09804,5.01838,5.5576,5.97426,5.99877,5.66789,5.98652,5.8701,5.94363,5.56373
60.8551,3.59069,4.73039,4.7549,4.63848,4.63235,4.26471,4.69363,4.83456,4.77941,4.63848,5.08578,4.33824,4.70588,4.82843,4.73039
61.0802,2.78799,3.24142,3.44975,3.25368,3.26593,3.60294,3.18627,3.27819,3.28431,3.53554,3.38848,3.06985,3.25368,3.30882,3.24142
61.3054,3.29044,3.67647,3.57843,3.33946,3.46201,3.03309,3.51716,3.35784,3.44975,3.63971,3.44363,3.10049,3.36397,3.45588,3.54167
61.5305,2.2549,2.48162,2.51225,2.50613,2.35294,2.45098,2.37745,2.41422,2.46936,2.50613,2.57353,2.38358,2.38971,2.40809,2.43873
61.7556,1.18873,1.15196,1.12745,1.28064,1.23162,1.18873,1.43995,1.29289,1.19485,1.1826,1.18873,1.20711,1.33578,1.22549,1.24387
61.9807,1.15809,0.882353,1.01103,0.974265,0.845588,0.980392,0.998775,0.882353,0.955882,0.894608,0.808824,0.96201,0.790441,0.784314,0.968137
62.2058,0.876226,0.759804,0.863971,0.821078,0.772059,0.845588,0.827206,0.67402,0.814951,0.814951,0.827206,0.894608,0.723039,0.778186,0.833333
62.431,0.796569,0.814951,0.778186,0.802696,0.882353,0.827206,0.772059,0.765931,0.919118,0.784314,0.692402,0.9375,0.814951,0.925245,0.784314
62.6561,0.870098,0.882353,0.808824,0.906863,0.906863,0.863971,0.870098,0.980392,0.833333,0.876226,0.857843,0.943627,1.0049,0.906863,0.91299
62.8812,1.09069,1.27451,1.25613,1.13358,1.28676,1.39093,1.26225,1.25613,1.39093,1.31127,1.34191,1.26225,1.20098,1.26838,1.39093
63.1063,1.67279,2.14461,2.08946,1.96691,1.98529,1.91176,2.07721,1.95466,1.90564,2.0527,2.01593,1.91176,1.99755,1.875,1.97304
63.3314,1.01716,1.17647,1.19485,1.26225,1.15196,1.26225,1.3174,0.98652,1.17034,1.1826,1.21324,1.24387,1.0723,1.13971,1.30515
63.5565,1.0049,0.808824,0.974265,0.919118,0.88848,0.870098,0.821078,1.01716,0.9375,0.753676,0.900735,0.790441,0.845588,0.857843,0.88848
63.7817,0.814951,0.876226,0.686275,0.802696,0.759804,0.747549,0.91299,0.796569,0.784314,0.814951,0.686275,0.765931,0.827206,0.729167,0.814951
64.0068,0.91299,0.802696,0.857843,0.894608,0.925245,1.04167,0.96201,0.814951,0.968137,0.919118,0.814951,0.821078,0.931373,0.753676,0.882353
64.2319,1.17034,1.15809,1.0723,0.992647,1.02328,1.04167,1.09069,1.0049,0.894608,1.0049,1.06618,0.98652,1.09681,1.10907,1.06618
64.457,1.78922,1.90564,1.84436,1.98529,1.81985,2.07721,2.16299,1.95466,2.0098,2.09559,1.97304,1.97917,2.09559,1.74632,2.09559
64.6821,4.62623,5.75368,6.22549,5.96201,5.56985,5.90686,5.56985,5.83333,5.99265,5.81495,6.45221,5.35539,5.92525,5.99265,6.01103
64.9072,2.59191,3.1924,3.02696,3.10662,3.35784,3.21078,2.93505,3.02696,2.70833,3.0576,3.21078,2.66544,2.75123,2.76961,2.86152
65.1324,1.41544,1.40931,1.56863,1.4277,1.59314,1.61765,1.45221,1.65441,1.59926,1.6973,1.62377,1.48897,1.34804,1.34191,1.44608
65.3575,1.47672,1.64828,1.66667,1.61152,1.63603,1.74632,1.62377,1.72181,1.48284,1.75858,1.55025,1.60539,1.60539,1.42157,1.68505
65.5826,3.19853,4.27696,4.29534,4.57108,4.17892,3.89093,3.89093,3.9277,4.05025,4.0625,4.31373,3.66422,3.72549,4.74265,3.60907
65.8077,2.33456,2.54289,2.52451,2.77574,2.48775,2.40809,2.59804,2.33456,2.40196,2.51225,2.55515,2.51225,2.53064,2.53064,2.56127
66.0328,1.65441,1.17034,1.12132,1.3174,1.32353,1.36029,1.40931,1.20711,1.19485,1.19485,1.26838,1.12745,1.32966,1.0049,1.28064
66.2579,1.71569,1.23775,1.31127,1.13971,1.13971,1.30515,1.39093,1.32966,1.13971,1.1826,1.26838,1.19485,1.1152,1.02941,1.24387
66.4831,2.29167,1.98529,1.93627,1.96078,2.15686,2.26103,2.0527,2.08946,2.02206,2.13848,2.16912,2.19363,2.0527,0.796569,2.07108
66.7082,1.64828,1.26838,1.43995,1.28064,1.51348,1.5625,1.3848,1.58701,1.30515,1.33578,1.40319,1.31127,1.30515,0.612745,1.36642
66.9333,0.876226,0.814951,0.802696,0.802696,0.710784,0.808824,0.821078,0.790441,0.808824,0.808824,0.845588,0.772059,0.802696,0.612745,0.729167
67.1584,0.790441,0.723039,0.655637,0.784314,0.612745,0.643382,0.729167,0.716912,0.625,0.772059,0.692402,0.60049,0.60049,0.569853,0.594363
67.3835,0.643382,0.765931,0.692402,0.60049,0.594363,0.741422,0.808824,0.588235,0.698529,0.582108,0.60049,0.710784,0.692402,0.667892,0.563726
67.6086,0.845588,0.735294,0.60049,0.704657,0.747549,0.735294,0.704657,0.723039,0.686275,0.686275,0.637255,0.692402,0.661765,0.606618,0.796569
67.8338,1.0049,0.821078,0.827206,0.710784,0.729167,0.759804,0.735294,0.906863,0.827206,0.851716,0.821078,0.790441,0.716912,0.625,0.88848
68.0589,1.77083,1.4951,1.40319,1.14583,1.45833,1.55637,1.32353,1.53186,1.42157,1.55025,1.37868,1.55025,1.27451,0.588235,1.42157
68.284,2.34069,1.64828,1.70956,1.77083,1.9424,1.99755,1.84436,2.00368,1.67892,1.99142,1.91789,1.94853,1.85049,0.67402,1.78922
68.5091,1.13971,0.992647,0.91299,0.980392,1.10294,1.12132,1.06618,1.0049,0.955882,1.10294,0.91299,1.01103,0.980392,0.563726,1.06005
68.7342,0.974265,0.643382,0.753676,0.686275,0.845588,0.821078,0.772059,0.8394608,0.772059,0.833333,0.808824,0.686275,0.845588,0.569853,0.723039
68.9593,1.0049,0.955882,0.747549,0.741422,0.88848,0.863971,0.894608,0.772059,0.949755,0.821078,0.863971,0.949755,0.814951,0.894608,0.863971
69.1845,1.58088,1.67279,1.72181,1.48284,1.41544,1.4951,1.67892,1.73407,1.57475,1.58701,1.6299,1.60539,1.68505,1.68505,1.76471
69.4096,1.20711,1.10907,1.28064,1.34804,1.20098,1.12132,1.1826,1.05392,1.1152,1.27451,1.26838,1.15809,1.1152,1.14583,1.26225
69.6347,0.980392,0.845588,0.765931,0.8394608,0.759804,0.845588,0.925245,0.729167,0.765931,0.894608,0.8394608,0.686275,0.784314,0.778186,0.845588
69.8598,0.802696,0.9375,0.698529,0.894608,0.88848,0.919118,0.949755,0.772059,0.91299,0.863971,0.98652,0.741422,0.698529,0.833333,0.827206
70.0849,1.21324,1.51961,1.26225,1.34804,1.21324,1.25,1.26225,1.12745,1.33578,1.31127,1.24387,1.28676,1.32966,1.39093,1.21324
70.31,1.59314,1.62377,1.85662,1.34191,1.55025,1.69118,1.55637,1.53186,1.70343,1.53799,1.56863,1.64828,1.70956,1.73407,1.67279
70.5352,1.12745,1.15809,0.876226,1.1152,1.07843,1.22549,1.22549,1.16422,0.992647,1.01716,1.32966,1.23162,1.18873,0.968137,1.03554
70.7603,0.729167,0.747549,0.698529,0.741422,0.925245,0.680147,0.680147,0.747549,0.747549,0.821078,0.790441,0.64951,0.704657,0.625,0.857843
70.9854,0.741422,0.692402,0.686275,0.526961,0.64951,0.661765,0.631127,0.64951,0.60049,0.625,0.625,0.625,0.710784,0.582108,0.723039
71.2105,0.551471,0.67402,0.557598,0.594363,0.661765,0.631127,0.57598,0.582108,0.539216,0.545343,0.526961,0.582108,0.563726,0.661765,0.631127
71.4356,0.618873,0.60049,0.667892,0.655637,0.60049,0.67402,0.471814,0.539216,0.618873,0.502451,0.545343,0.612745,0.545343,0.490196,0.612745
71.6607,0.551471,0.502451,0.606618,0.625,0.594363,0.64951,0.582108,0.551471,0.545343,0.655637,0.551471,0.508578,0.557598,0.67402,0.606618
71.8859,0.637255,0.64951,0.643382,0.606618,0.514706,0.606618,0.569853,0.643382,0.539216,0.631127,0.514706,0.588235,0.526961,0.686275,0.533088
72.111,0.67402,0.692402,0.545343,0.64951,0.661765,0.661765,0.661765,0.686275,0.655637,0.563726,0.533088,0.637255,0.637255,0.631127,0.57598
72.3361,0.625,0.765931,0.741422,0.625,0.802696,0.747549,0.772059,0.759804,0.667892,0.759804,0.729167,0.67402,0.729167,0.716912,0.802696
72.5612,0.808824,0.845588,0.943627,0.91299,1.05392,0.851716,0.9375,0.894608,0.765931,1.08456,0.955882,0.949755,0.91299,0.851716,1.10907
72.7863,1.61152,2.02206,2.13235,1.90564,1.70956,1.78309,1.88725,1.875,2.14461,1.94853,1.96691,1.98529,1.88113,2.13848,2.17525
73.0114,1.8076,2.08946,2.10172,2.23652,2.16912,1.97304,2.04657,1.98529,1.85049,2.14461,2.22426,2.00368,1.96691,2.20588,2.19975
73.2366,1.29902,1.28676,1.22549,1.1826,1.21324,1.39093,1.39093,1.29902,1.29902,1.28064,1.25613,1.3174,0.998775,1.24387,1.29902
73.4617,1.12132,1.01103,0.949755,1.24387,1.01716,1.0723,1.06618,1.01716,0.894608,1.01716,1.06618,1.13358,0.955882,0.91299,1.13971
73.6868,1.20098,1.21324,1.13358,1.39706,1.29902,1.32966,1.1826,1.12132,1.06005,1.20711,1.18873,1.19485,1.26225,1.17647,1.26225
73.9119,0.784314,0.870098,1.03554,0.833333,0.974265,1.02941,1.02941,0.894608,0.9375,0.863971,0.870098,0.98652,0.955882,0.919118,0.91299
74.137,0.796569,0.729167,0.612745,0.67402,0.772059,0.845588,0.539216,0.704657,0.827206,0.790441,0.704657,0.637255,0.686275,0.569853,0.643382
74.3621,0.637255,0.625,0.710784,0.569853,0.692402,0.704657,0.606618,0.594363,0.686275,0.686275,0.64951,0.655637,0.67402,0.618873,0.698529
74.5873,0.612745,0.747549,0.545343,0.67402,0.594363,0.692402,0.680147,0.582108,0.606618,0.594363,0.612745,0.631127,0.557598,0.569853,0.686275
74.8124,0.667892,0.643382,0.582108,0.526961,0.686275,0.612745,0.710784,0.631127,0.606618,0.502451,0.618873,0.643382,0.569853,0.60049,0.631127
75.0375,0.827206,0.735294,0.710784,0.778186,0.698529,0.808824,0.643382,0.612745,0.612745,0.545343,0.526961,0.716912,0.612745,0.618873,0.741422
75.2626,1.91176,1.25,1.10294,1.15809,1.23162,1.09681,1.36029,1.25,1.06618,1.18873,1.0723,1.10294,1.21936,1.20098,1.26838
75.4877,1.33578,0.827206,1.02941,0.857843,0.955882,0.9375,1.05392,0.845588,0.906863,0.796569,0.876226,0.974265,0.851716,0.974265,0.955882
75.7128,0.741422,0.588235,0.698529,0.57598,0.588235,0.655637,0.759804,0.741422,0.698529,0.539216,0.625,0.637255,0.729167,0.661765,0.655637
75.938,0.808824,0.919118,0.637255,0.808824,0.802696,0.765931,0.723039,0.625,0.729167,0.765931,0.716912,0.790441,0.686275,0.741422,0.784314
76.1631,1.06005,1.19485,1.19485,1.10907,1.23162,1.03554,1.18873,1.24387,1.23162,1.13358,1.06005,1.07843,0.906863,1.14583,1.16422
76.3882,1.16422,1.40931,1.32966,1.22549,1.4277,1.4277,1.16422,1.13971,1.22549,1.39093,1.29289,1.23162,1.3848,1.15809,1.37868
76.6133,1.42157,1.08456,1.15196,1.25,1.09681,1.23162,1.19485,1.19485,1.08456,1.13358,1.03554,1.16422,1.15196,0.833333,1.21324
76.8384,1.71569,1.51961,1.64828,1.69118,1.58701,1.4951,1.59926,1.65441,1.67279,1.72794,1.6299,1.72181,1.58088,1.06005,1.52574
77.0635,1.93015,2.10784,2.0527,2.3652,2.22426,2.37745,2.48162,2.13848,2.15686,2.39583,2.35294,2.24265,2.03431,2.16299,2.28554
77.2887,1.86275,2.04657,2.00368,1.97304,1.75858,1.85049,1.81373,1.82598,1.89951,2.05882,2.11397,1.9424,2.08946,1.56863,2.10784
77.5138,1.14583,1.13358,1.25,1.29289,1.17034,1.46446,1.13971,1.12132,1.20098,1.16422,1.1826,1.10294,1.23775,1.04167,0.91299
77.7389,0.900735,0.655637,0.857843,0.686275,0.870098,0.827206,0.925245,0.680147,0.64951,0.625,0.900735,0.735294,0.796569,0.772059,0.870098
77.964,1.08456,0.686275,0.631127,0.643382,0.716912,0.655637,0.716912,0.784314,0.710784,0.680147,0.643382,0.64951,0.563726,0.643382,0.655637
78.1891,0.759804,0.502451,0.484069,0.618873,0.612745,0.563726,0.686275,0.588235,0.643382,0.496324,0.631127,0.686275,0.618873,0.551471,0.753676
78.4142,0.704657,0.625,0.533088,0.680147,0.545343,0.569853,0.631127,0.551471,0.582108,0.643382,0.60049,0.643382,0.661765,0.588235,0.606618
78.6394,0.747549,0.557598,0.539216,0.637255,0.490196,0.545343,0.637255,0.545343,0.588235,0.490196,0.508578,0.747549,0.477941,0.514706,0.533088
78.8645,0.57598,0.526961,0.557598,0.508578,0.60049,0.557598,0.514706,0.64951,0.539216,0.539216,0.471814,0.612745,0.496324,0.569853,0.545343
79.0896,0.606618,0.643382,0.404412,0.520833,0.539216,0.508578,0.508578,0.545343,0.520833,0.435049,0.502451,0.545343,0.496324,0.502451,0.606618
79.3147,0.790441,0.477941,0.563726,0.57598,0.496324,0.60049,0.490196,0.520833,0.514706,0.594363,0.582108,0.459559,0.471814,0.496324,0.539216
79.5398,0.778186,0.533088,0.477941,0.569853,0.625,0.57598,0.582108,0.533088,0.569853,0.526961,0.508578,0.477941,0.618873,0.453431,0.545343
79.7649,0.698529,0.484069,0.551471,0.57598,0.471814,0.526961,0.526961,0.533088,0.508578,0.686275,0.582108,0.612745,0.545343,0.551471,0.625
79.9901,0.716912,0.539216,0.64951,0.557598,0.60049,0.569853,0.453431,0.594363,0.502451,0.477941,0.60049,0.594363,0.533088,0.490196,0.508578